{
  "counts": [
    [
      0.0,
      0.0,
      0.0,
      0.0,
      0.0,
      0.0
    ],
    [
      12.05,
      12.0,
      12.02,
      11.98,
      12.02,
      12.02
    ],
    [
      24.8,
      24.55,
      24.9,
      24.77,
      24.8,
      24.6
    ],
    [
      38.0,
      37.68,
      38.0,
      37.85,
      37.97,
      37.88
    ],
    [
      50.85,
      50.7,
      50.95,
      50.68,
      50.85,
      50.63
    ],
    [
      64.07,
      63.97,
      64.32,
      63.95,
      64.1,
      63.95
    ],
    [
      77.02,
      77.02,
      77.55,
      76.95,
      77.12,
      76.93
    ],
    [
      89.37,
      89.02,
      89.75,
      89.05,
      89.27,
      88.95
    ],
    [
      102.95,
      102.8,
      103.3,
      102.77,
      103.0,
      102.82
    ],
    [
      116.02,
      115.77,
      116.35,
      115.97,
      116.02,
      115.8
    ],
    [
      128.63,
      128.0,
      129.0,
      128.23,
      128.83,
      128.1
    ],
    [
      141.8,
      141.08,
      142.0,
      141.13,
      141.75,
      141.02
    ],
    [
      155.0,
      154.3,
      155.27,
      154.55,
      154.93,
      154.2
    ],
    [
      167.85,
      166.98,
      168.05,
      167.0,
      167.8,
      167.0
    ],
    [
      181.4,
      180.93,
      182.0,
      180.95,
      181.63,
      180.88
    ],
    [
      193.48,
      192.85,
      194.05,
      193.0,
      193.4,
      193.0
    ],
    [
      206.9,
      206.08,
      207.25,
      206.2,
      206.9,
      206.05
    ],
    [
      219.52,
      218.98,
      220.08,
      218.98,
      219.45,
      218.88
    ],
    [
      232.93,
      232.02,
      233.35,
      232.05,
      232.98,
      232.0
    ],
    [
      245.33,
      244.48,
      246.05,
      244.77,
      245.27,
      244.38
    ],
    [
      258.1,
      257.23,
      258.98,
      257.6,
      258.08,
      257.08
    ],
    [
      271.08,
      270.17,
      272.0,
      270.5,
      271.0,
      270.1
    ],
    [
      284.38,
      283.25,
      285.08,
      283.77,
      284.23,
      283.1
    ],
    [
      297.55,
      296.65,
      298.48,
      296.92,
      297.73,
      296.48
    ],
    [
      310.83,
      309.42,
      311.65,
      309.92,
      310.55,
      309.42
    ],
    [
      323.23,
      322.13,
      324.15,
      322.48,
      323.15,
      322.08
    ],
    [
      336.58,
      335.7,
      337.63,
      336.0,
      336.6,
      335.25
    ],
    [
      349.48,
      348.13,
      350.73,
      348.55,
      349.52,
      348.08
    ],
    [
      363.0,
      361.9,
      364.0,
      362.0,
      363.0,
      361.6
    ],
    [
      375.05,
      374.0,
      376.23,
      374.05,
      375.02,
      373.92
    ],
    [
      388.25,
      387.05,
      389.65,
      387.05,
      388.27,
      387.0
    ],
    [
      401.73,
      400.1,
      403.0,
      400.48,
      401.67,
      400.05
    ],
    [
      414.02,
      412.9,
      415.2,
      413.0,
      414.0,
      412.23
    ],
    [
      427.83,
      426.05,
      428.98,
      426.4,
      427.67,
      426.0
    ],
    [
      440.13,
      439.0,
      441.73,
      439.0,
      440.13,
      438.8
    ],
    [
      453.05,
      451.85,
      454.75,
      452.02,
      453.08,
      451.42
    ],
    [
      466.52,
      465.0,
      468.0,
      465.05,
      466.35,
      464.9
    ],
    [
      480.58,
      478.98,
      482.0,
      479.15,
      480.38,
      479.0
    ],
    [
      492.02,
      490.6,
      493.77,
      491.0,
      492.02,
      490.3
    ],
    [
      505.0,
      503.3,
      506.77,
      504.0,
      505.0,
      503.05
    ],
    [
      518.28,
      516.67,
      519.97,
      517.0,
      518.25,
      516.35
    ],
    [
      531.85,
      530.0,
      533.13,
      530.13,
      531.92,
      529.97
    ],
    [
      544.15,
      542.58,
      545.95,
      542.97,
      544.03,
      542.17
    ],
    [
      557.35,
      555.6,
      559.0,
      555.97,
      557.15,
      555.1
    ],
    [
      570.22,
      568.13,
      571.97,
      568.9,
      570.08,
      568.0
    ],
    [
      583.17,
      581.17,
      585.0,
      581.97,
      583.15,
      581.03
    ],
    [
      596.2,
      594.17,
      598.05,
      594.85,
      596.13,
      594.0
    ],
    [
      609.55,
      607.53,
      611.13,
      608.0,
      609.55,
      607.1
    ],
    [
      622.03,
      620.0,
      624.0,
      620.45,
      622.03,
      619.97
    ],
    [
      635.08,
      633.0,
      637.0,
      633.38,
      635.05,
      632.95
    ],
    [
      648.05,
      646.0,
      650.0,
      646.28,
      648.03,
      645.88
    ],
    [
      661.17,
      659.03,
      663.08,
      659.35,
      661.13,
      659.0
    ],
    [
      674.1,
      672.0,
      676.13,
      672.42,
      674.1,
      671.97
    ],
    [
      687.03,
      684.95,
      689.0,
      685.08,
      687.0,
      684.67
    ],
    [
      700.55,
      698.0,
      702.78,
      698.85,
      700.4,
      698.0
    ],
    [
      713.0,
      710.85,
      715.03,
      711.03,
      713.0,
      710.13
    ],
    [
      726.0,
      723.65,
      728.0,
      724.0,
      726.0,
      723.3
    ],
    [
      739.5,
      737.0,
      741.8,
      737.35,
      739.33,
      736.95
    ],
    [
      752.7,
      750.03,
      754.92,
      750.63,
      752.45,
      749.9
    ],
    [
      765.8,
      763.0,
      767.97,
      763.5,
      765.6,
      762.95
    ],
    [
      778.05,
      775.38,
      780.28,
      776.0,
      778.0,
      775.03
    ],
    [
      791.0,
      788.38,
      793.3,
      789.0,
      791.03,
      788.03
    ],
    [
      803.97,
      801.03,
      806.15,
      801.83,
      803.9,
      800.97
    ],
    [
      817.05,
      814.55,
      -818.75,
      815.03,
      817.0,
      814.0
    ]
  ],
  "volts": [
    0.0,
    0.1,
    0.199,
    0.301,
    0.401,
    0.504,
    0.604,
    0.699,
    0.804,
    0.904,
    1.0,
    1.1,
    1.202,
    1.301,
    1.408,
    1.501,
    1.603,
    1.701,
    1.804,
    1.902,
    1.999,
    2.099,
    2.2,
    2.302,
    2.402,
    2.501,
    2.603,
    2.702,
    2.805,
    2.9,
    3.001,
    3.103,
    3.199,
    3.303,
    3.401,
    3.501,
    3.602,
    3.71,
    3.8,
    3.9,
    4.0,
    4.103,
    4.2,
    4.3,
    4.4,
    4.501,
    4.602,
    4.704,
    4.801,
    4.901,
    5.0,
    5.101,
    5.202,
    5.3,
    5.403,
    5.499,
    5.6,
    5.703,
    5.804,
    5.905,
    6.0,
    6.1,
    6.2,
    6.302
  ]
}
